{
    "resourceType": "Bundle",
    "id": "bundle-transaction-wound-care",
    "type": "transaction",
    "entry": [
        {
            "fullUrl": "urn:uuid:92cc92d9-e7be-41c0-b7a5-85288edb0bdf",
            "resource": {
                "resourceType": "Patient",
                "id": "patient-1",
                "text": {
                    "status": "generated",
                    "div": "<div xmlns=\"http://www.w3.org/1999/xhtml\">John Doe</div>"
                },
                "name": [
                    {
                        "given": [
                            "John"
                        ],
                        "family": "Doe"
                    }
                ]
            },
            "request": {
                "method": "POST",
                "url": "Patient"
            }
        },
        {
            "fullUrl": "urn:uuid:e0bf5d6b-1200-48e8-99b2-331b390c7ffc",
            "resource": {
                "resourceType": "Practitioner",
                "id": "practitioner-1",
                "text": {
                    "status": "generated",
                    "div": "<div xmlns=\"http://www.w3.org/1999/xhtml\">Dr. Jane Smith</div>"
                },
                "name": [
                    {
                        "given": [
                            "Dr. Jane"
                        ],
                        "family": "Smith"
                    }
                ]
            },
            "request": {
                "method": "POST",
                "url": "Practitioner"
            }
        },
        {
            "fullUrl": "urn:uuid:f28baa34-9356-4177-a0c3-111bac240afc",
            "resource": {
                "resourceType": "Encounter",
                "text": {
                    "status": "generated",
                    "div": "<div xmlns=\"http://www.w3.org/1999/xhtml\">Encounter for wound care</div>"
                },
                "id": "encounter-1",
                "status": "finished",
                "class": {
                    "system": "http://terminology.hl7.org/CodeSystem/v3-ActCode",
                    "code": "AMB"
                },
                "subject": {
                    "reference": "urn:uuid:92cc92d9-e7be-41c0-b7a5-85288edb0bdf"
                },
                "participant": [
                    {
                        "individual": {
                            "reference": "urn:uuid:e0bf5d6b-1200-48e8-99b2-331b390c7ffc"
                        }
                    }
                ],
                "period": {
                    "end": "2025-06-10T19:38:20.123+02:00"
                }
            },
            "request": {
                "method": "POST",
                "url": "Encounter"
            }
        },
        {
            "fullUrl": "urn:uuid:98e65f80-d545-470c-9517-4db1327d01f1",
            "resource": {
                "resourceType": "Condition",
                "id": "wound-1",
                "text": {
                    "status": "generated",
                    "div": "<div xmlns=\"http://www.w3.org/1999/xhtml\">Pressure injury stage I on forehead</div>"
                },
                "clinicalStatus": {
                    "coding": [
                        {
                            "system": "http://terminology.hl7.org/CodeSystem/condition-clinical",
                            "code": "active",
                            "display": "Active"
                        }
                    ]
                },
                "verificationStatus": {
                    "coding": [
                        {
                            "system": "http://terminology.hl7.org/CodeSystem/condition-ver-status",
                            "code": "confirmed",
                            "display": "Confirmed"
                        }
                    ]
                },
                "category": [
                    {
                        "coding": [
                            {
                                "system": "http://terminology.hl7.org/CodeSystem/condition-category",
                                "code": "problem-list-item",
                                "display": "Problem List Item"
                            },
                            {
                                "system": "http://snomed.info/sct",
                                "code": "416462003",
                                "display": "Wound"
                            },
                            {
                                "system": "http://zuni.care/oids",
                                "code": "1.3.6.1.4.1.61978.1.1.1002",
                                "display": "ZUNI Wound"
                            }
                        ],
                        "text": "Wound"
                    }
                ],
                "code": {
                    "coding": [
                        {
                            "system": "http://snomed.info/sct",
                            "code": "1163217004",
                            "display": "Pressure injury stage I"
                        },
                        {
                            "system": "http://zuni.care/oids",
                            "code": "1.3.6.1.4.1.61978.1.1.1.1.1",
                            "display": "Decubitus - Stage I"
                        }
                    ],
                    "text": "Decubitus - Stage I"
                },
                "subject": {
                    "reference": "urn:uuid:92cc92d9-e7be-41c0-b7a5-85288edb0bdf"
                },
                "bodySite": [
                    {
                        "coding": [
                            {
                                "system": "http://snomed.info/sct",
                                "code": "362614004",
                                "display": "Entire forehead"
                            },
                            {
                                "system": "http://zuni.care/panatchek",
                                "code": "FRONT-1-a",
                                "display": "front - head from the front - forehead"
                            }
                        ],
                        "text": "front - head from the front - forehead"
                    }
                ]
            },
            "request": {
                "method": "POST",
                "url": "Condition"
            }
        },
        {
            "fullUrl": "urn:uuid:89dcb5b0-0fe5-4375-aef5-093caf102a4b",
            "resource": {
                "resourceType": "Observation",
                "id": "wound-1-obs",
                "text": {
                    "status": "generated",
                    "div": "<div xmlns=\"http://www.w3.org/1999/xhtml\">Wound Assessment for Pressure Injury Stage I on forehead</div>"
                },
                "status": "final",
                "category": [
                    {
                        "coding": [
                            {
                                "system": "http://terminology.hl7.org/CodeSystem/observation-category",
                                "code": "exam"
                            }
                        ]
                    }
                ],
                "code": {
                    "coding": [
                        {
                            "system": "http://snomed.info/sct",
                            "code": "372032001",
                            "display": "Evaluation of wound healing progress"
                        },
                        {
                            "system": "http://zuni.care/oids",
                            "code": "1.3.6.1.4.1.61978.1.1.1001",
                            "display": "ZUNI Wound Assessment"
                        }
                    ],
                    "text": "Wound Assessment"
                },
                "subject": {
                    "reference": "urn:uuid:92cc92d9-e7be-41c0-b7a5-85288edb0bdf"
                },
                "encounter": {
                    "reference": "urn:uuid:f28baa34-9356-4177-a0c3-111bac240afc"
                },
                "performer": [
                    {
                        "reference": "urn:uuid:e0bf5d6b-1200-48e8-99b2-331b390c7ffc"
                    }
                ],
                "focus": [
                    {
                        "reference": "urn:uuid:98e65f80-d545-470c-9517-4db1327d01f1"
                    }
                ],
                "effectiveDateTime": "2025-06-10T19:38:20.123+02:00",
                "component": [
                    {
                        "code": {
                            "coding": [
                                {
                                    "system": "http://zuni.care/oids",
                                    "code": "1.3.6.1.4.1.61978.1.1.2",
                                    "display": "Exudate amount"
                                }
                            ],
                            "text": "Exudate amount"
                        },
                        "valueCodeableConcept": {
                            "coding": [
                                {
                                    "system": "http://zuni.care/oids",
                                    "code": "1.3.6.1.4.1.61978.1.1.2.2",
                                    "display": "minimal"
                                }
                            ],
                            "text": "minimal"
                        }
                    },
                    {
                        "code": {
                            "coding": [
                                {
                                    "system": "http://snomed.info/sct",
                                    "code": "441281002",
                                    "display": "Amount of exudate"
                                }
                            ]
                        },
                        "valueCodeableConcept": {
                            "coding": [
                                {
                                    "system": "http://snomed.info/sct",
                                    "code": "260347006",
                                    "display": "Present + out of ++++"
                                }
                            ]
                        }
                    },
                    {
                        "code": {
                            "coding": [
                                {
                                    "system": "http://zuni.care/oids",
                                    "code": "1.3.6.1.4.1.61978.1.1.3",
                                    "display": "Exudate type"
                                }
                            ],
                            "text": "Exudate type"
                        },
                        "valueCodeableConcept": {
                            "coding": [
                                {
                                    "system": "http://zuni.care/oids",
                                    "code": "1.3.6.1.4.1.61978.1.1.3.3",
                                    "display": "hermorrhagic"
                                }
                            ],
                            "text": "hermorrhagic"
                        }
                    },
                    {
                        "code": {
                            "coding": [
                                {
                                    "system": "http://snomed.info/sct",
                                    "code": "239164002",
                                    "display": "Wound discharge"
                                }
                            ]
                        },
                        "valueBoolean": true
                    },
                    {
                        "code": {
                            "coding": [
                                {
                                    "system": "http://snomed.info/sct",
                                    "code": "763285000",
                                    "display": "Wound discharge observable"
                                },
                                {
                                    "system": "http://snomed.info/sct",
                                    "code": "703248002",
                                    "display": "Appearance"
                                }
                            ]
                        },
                        "valueCodeableConcept": {
                            "coding": [
                                {
                                    "system": "http://snomed.info/sct",
                                    "code": "255345002",
                                    "display": "Hemorrhagic"
                                }
                            ]
                        }
                    },
                    {
                        "code": {
                            "coding": [
                                {
                                    "system": "http://zuni.care/oids",
                                    "code": "1.3.6.1.4.1.61978.1.1.4",
                                    "display": "Malodor"
                                }
                            ],
                            "text": "Malodor"
                        },
                        "valueCodeableConcept": {
                            "coding": [
                                {
                                    "system": "http://zuni.care/oids",
                                    "code": "1.3.6.1.4.1.61978.1.1.4.3",
                                    "display": "while dressed"
                                }
                            ],
                            "text": "while dressed"
                        }
                    },
                    {
                        "code": {
                            "coding": [
                                {
                                    "system": "http://zuni.care/oids",
                                    "code": "1.3.6.1.4.1.61978.1.1.5",
                                    "display": "Wound edges"
                                }
                            ],
                            "text": "Wound edges"
                        },
                        "valueCodeableConcept": {
                            "coding": [
                                {
                                    "system": "http://zuni.care/oids",
                                    "code": "1.3.6.1.4.1.61978.1.1.5.3",
                                    "display": "rolled"
                                }
                            ],
                            "text": "rolled"
                        }
                    },
                    {
                        "code": {
                            "coding": [
                                {
                                    "system": "http://snomed.info/sct",
                                    "code": "449751008",
                                    "display": "Rolled wound edge"
                                }
                            ],
                            "text": "Rolled wound edge"
                        },
                        "valueBoolean": true
                    },
                    {
                        "code": {
                            "coding": [
                                {
                                    "system": "http://zuni.care/oids",
                                    "code": "1.3.6.1.4.1.61978.1.1.5",
                                    "display": "Wound edges"
                                }
                            ],
                            "text": "Wound edges"
                        },
                        "valueCodeableConcept": {
                            "coding": [
                                {
                                    "system": "http://zuni.care/oids",
                                    "code": "1.3.6.1.4.1.61978.1.1.5.6",
                                    "display": "hyperkeratosis"
                                }
                            ],
                            "text": "hyperkeratosis"
                        }
                    },
                    {
                        "code": {
                            "coding": [
                                {
                                    "system": "http://snomed.info/sct",
                                    "code": "763286004",
                                    "display": "Wound edge observable"
                                }
                            ],
                            "text": "Wound edge observable"
                        },
                        "valueCodeableConcept": {
                            "coding": [
                                {
                                    "system": "http://snomed.info/sct",
                                    "code": "26996000",
                                    "display": "Hyperkeratosis"
                                }
                            ],
                            "text": "Hyperkeratosis"
                        }
                    },
                    {
                        "code": {
                            "coding": [
                                {
                                    "system": "http://zuni.care/oids",
                                    "code": "1.3.6.1.4.1.61978.1.1.6",
                                    "display": "Wound surrounding"
                                }
                            ],
                            "text": "Wound surrounding"
                        },
                        "valueCodeableConcept": {
                            "coding": [
                                {
                                    "system": "http://zuni.care/oids",
                                    "code": "1.3.6.1.4.1.61978.1.1.6.6",
                                    "display": "erythematous"
                                }
                            ],
                            "text": "erythematous"
                        }
                    },
                    {
                        "code": {
                            "coding": [
                                {
                                    "system": "http://snomed.info/sct",
                                    "code": "1121000124105",
                                    "display": "Periwound skin condition"
                                }
                            ],
                            "text": "Periwound skin condition"
                        },
                        "valueCodeableConcept": {
                            "coding": [
                                {
                                    "system": "http://snomed.info/sct",
                                    "code": "247441003",
                                    "display": "Erythema"
                                }
                            ],
                            "text": "Erythema"
                        }
                    },
                    {
                        "code": {
                            "coding": [
                                {
                                    "system": "http://zuni.care/oids",
                                    "code": "1.3.6.1.4.1.61978.1.1.6",
                                    "display": "Wound surrounding"
                                }
                            ],
                            "text": "Wound surrounding"
                        },
                        "valueCodeableConcept": {
                            "coding": [
                                {
                                    "system": "http://zuni.care/oids",
                                    "code": "1.3.6.1.4.1.61978.1.1.6.3",
                                    "display": "dermatitis"
                                }
                            ],
                            "text": "dermatitis"
                        }
                    },
                    {
                        "code": {
                            "coding": [
                                {
                                    "system": "http://snomed.info/sct",
                                    "code": "1121000124105",
                                    "display": "Periwound skin condition"
                                }
                            ],
                            "text": "Periwound skin condition"
                        },
                        "valueCodeableConcept": {
                            "coding": [
                                {
                                    "system": "http://snomed.info/sct",
                                    "code": "703938007",
                                    "display": "Inflammatory dermatosis"
                                }
                            ],
                            "text": "Inflammatory dermatosis"
                        }
                    },
                    {
                        "code": {
                            "coding": [
                                {
                                    "system": "http://zuni.care/oids",
                                    "code": "1.3.6.1.4.1.61978.1.1.7",
                                    "display": "Wound bed color"
                                }
                            ],
                            "text": "Wound bed color"
                        },
                        "valueCodeableConcept": {
                            "coding": [
                                {
                                    "system": "http://zuni.care/oids",
                                    "code": "1.3.6.1.4.1.61978.1.1.7.4",
                                    "display": "yellow"
                                }
                            ],
                            "text": "yellow"
                        }
                    },
                    {
                        "code": {
                            "coding": [
                                {
                                    "system": "http://snomed.info/sct",
                                    "code": "1191000124107",
                                    "display": "Wound bed appearance"
                                }
                            ],
                            "text": "Wound bed appearance"
                        },
                        "valueCodeableConcept": {
                            "coding": [
                                {
                                    "system": "http://snomed.info/sct",
                                    "code": "371244009",
                                    "display": "Yellow color"
                                }
                            ],
                            "text": "Yellow color"
                        }
                    },
                    {
                        "code": {
                            "coding": [
                                {
                                    "system": "http://zuni.care/oids",
                                    "code": "1.3.6.1.4.1.61978.1.1.8",
                                    "display": "Wound state"
                                }
                            ],
                            "text": "Wound state"
                        },
                        "valueCodeableConcept": {
                            "coding": [
                                {
                                    "system": "http://zuni.care/oids",
                                    "code": "1.3.6.1.4.1.61978.1.1.8.3",
                                    "display": "infected flesh wound"
                                }
                            ],
                            "text": "infected flesh wound"
                        }
                    },
                    {
                        "code": {
                            "coding": [
                                {
                                    "system": "http://snomed.info/sct",
                                    "code": "76844004",
                                    "display": "Local infection of wound"
                                }
                            ],
                            "text": "Local infection of wound"
                        },
                        "valueBoolean": true
                    },
                    {
                        "code": {
                            "coding": [
                                {
                                    "system": "http://snomed.info/sct",
                                    "code": "262526004",
                                    "display": "Wound of skin"
                                }
                            ],
                            "text": "Wound of skin"
                        },
                        "valueBoolean": true
                    },
                    {
                        "code": {
                            "coding": [
                                {
                                    "system": "http://zuni.care/oids",
                                    "code": "1.3.6.1.4.1.61978.1.1.8",
                                    "display": "Wound state"
                                }
                            ],
                            "text": "Wound state"
                        },
                        "valueCodeableConcept": {
                            "coding": [
                                {
                                    "system": "http://zuni.care/oids",
                                    "code": "1.3.6.1.4.1.61978.1.1.8.10",
                                    "display": "tunneling"
                                }
                            ],
                            "text": "tunneling"
                        }
                    },
                    {
                        "code": {
                            "coding": [
                                {
                                    "system": "http://snomed.info/sct",
                                    "code": "866166001",
                                    "display": "Wound tunneling"
                                }
                            ],
                            "text": "Wound tunneling"
                        },
                        "valueBoolean": true
                    },
                    {
                        "code": {
                            "coding": [
                                {
                                    "system": "http://zuni.care/oids",
                                    "code": "1.3.6.1.4.1.61978.1.1.1003",
                                    "display": "Wound depth"
                                },
                                {
                                    "system": "http://snomed.info/sct",
                                    "code": "425094009",
                                    "display": "Depth of wound"
                                }
                            ],
                            "text": "Wound depth"
                        },
                        "valueQuantity": {
                            "value": 2.5,
                            "unit": "cm",
                            "system": "http://unitsofmeasure.org",
                            "code": "cm"
                        }
                    },
                    {
                        "code": {
                            "coding": [
                                {
                                    "system": "http://zuni.care/oids",
                                    "code": "1.3.6.1.4.1.61978.1.1.1004",
                                    "display": "Wound width"
                                },
                                {
                                    "system": "http://snomed.info/sct",
                                    "code": "401239006",
                                    "display": "Width of wound"
                                }
                            ],
                            "text": "Wound width"
                        },
                        "valueQuantity": {
                            "value": 3.5,
                            "unit": "cm",
                            "system": "http://unitsofmeasure.org",
                            "code": "cm"
                        }
                    },
                    {
                        "code": {
                            "coding": [
                                {
                                    "system": "http://zuni.care/oids",
                                    "code": "1.3.6.1.4.1.61978.1.1.1005",
                                    "display": "Wound length"
                                },
                                {
                                    "system": "http://snomed.info/sct",
                                    "code": "401238003",
                                    "display": "Length of wound"
                                }
                            ],
                            "text": "Wound length"
                        },
                        "valueQuantity": {
                            "value": 3,
                            "unit": "cm",
                            "system": "http://unitsofmeasure.org",
                            "code": "cm"
                        }
                    },
                    {
                        "code": {
                            "coding": [
                                {
                                    "system": "http://zuni.care/oids",
                                    "code": "1.3.6.1.4.1.61978.1.1.1006",
                                    "display": "Wound area"
                                }
                            ],
                            "text": "Wound area"
                        },
                        "valueQuantity": {
                            "value": 4.5,
                            "unit": "cm²",
                            "system": "http://unitsofmeasure.org",
                            "code": "cm2"
                        }
                    }
                ]
            },
            "request": {
                "method": "POST",
                "url": "Observation"
            }
        }
    ]
}